Data Saved Successfully
Date and Time: 2018_12_06__11_34_55
Name: Mirror alignment measurements
Description: slit at 0.90, PT06 reads 0.20 barg
Substance: LXe
Sample ID: -3
Preamp Sensitivity: 100.000000
Incident Angle: 75.000000
Incident Power: 1000690.000000
Wavelength: 165.000000
Temperature: 177.000000
Pressure: 2.490000
80.000000	2634.591317	91.141160
79.750000	3004.038814	129.022996
79.500000	3524.218938	124.706168
79.250000	4118.885456	166.383596
79.000000	5818.518158	639.612828
78.750000	13966.881914	3555.623617
78.500000	36134.066372	9855.623498
78.250000	57914.722881	6418.227197
78.000000	88638.329301	9530.771457
77.750000	119736.110254	9520.109133
77.500000	149588.101957	11115.473935
77.250000	186573.179151	7367.058437
77.000000	226218.557837	13584.790982
76.750000	256021.007926	17460.789307
76.500000	291819.256623	14056.950852
76.250000	326015.857858	14804.561145
76.000000	365903.745954	19121.093374
75.750000	401501.797475	23087.524400
75.500000	433269.558805	19926.056287
75.250000	465510.449030	19772.390000
75.000000	493312.719483	16627.178610
74.750000	500638.192153	19819.610632
74.500000	492041.212273	18166.955937
74.250000	494587.551942	22943.289608
74.000000	483241.019562	20930.482532
73.750000	489059.316190	18833.360744
73.500000	487260.113460	24012.507482
73.250000	469038.421341	18759.686509
73.000000	467486.619538	19573.049519
72.750000	446541.783131	16520.800703
72.500000	423262.607944	19695.767459
72.250000	399000.127115	19899.558729
72.000000	368534.255181	13559.107577
71.750000	335499.626775	14736.915455
71.500000	306269.276215	13371.016782
71.250000	274543.029974	13213.070668
71.000000	245735.654978	10611.927627
70.750000	213091.504380	11138.624603
70.500000	178506.532841	11030.450728
70.250000	151923.283012	7974.407242
70.000000	118613.292297	7128.826319
